data;

param ticks := 32768.0;

param accelGain :
	1		2		3		:=
1	 0.0217667	6.50759e-05	-0.000260684
2	-7.17214e-06	0.022235	-0.000127841
3	 0.000439128	6.11889e-05	 0.0217889
;

param accelOffset :=
1	-48.6283
2	-54.689
3	-51.2517
;

param gyroGain_0 :
	 1		 2		3		:=
1	 0.0055217	 0.00018419	-0.000176364
2	-0.000149299	 0.00564991	-0.000573966
3	 0.000467873	-0.00192898	 0.006453
;

param gyroOffset_0 :=
1	-13.5694
2	-11.1467
3	-13.4404
;

param samples : 
#	time		accelx	accely	accelz	gyrox	gyroy	gyroz
	1		2	3	4	5	6	7	:=
1	42318184	2681	2335	2377	2463	2293	2603
2	42318371	2687	2338	2368	2462	2293	2603
3	42318504	2683	2327	2369	2461	2293	2602
4	42318664	2681	2334	2373	2460	2293	2602
5	42318824	2681	2332	2369	2459	2292	2603
6	42318984	2679	2325	2376	2460	2293	2603
7	42319172	2673	2331	2368	2460	2293	2604
8	42319304	2678	2334	2369	2460	2294	2603
9	42319464	2687	2335	2369	2457	2293	2603
10	42319624	2677	2333	2367	2457	2294	2604
11	42319784	2682	2338	2370	2452	2294	2605
12	42319971	2679	2343	2373	2443	2293	2605
13	42320104	2685	2342	2376	2435	2293	2606
14	42320264	2677	2343	2370	2426	2290	2609
15	42320424	2686	2346	2365	2415	2290	2610
16	42320584	2680	2347	2368	2406	2290	2610
17	42320772	2679	2338	2364	2395	2289	2611
18	42320904	2686	2336	2375	2386	2288	2615
19	42321064	2677	2339	2377	2374	2287	2616
20	42321224	2682	2340	2369	2364	2289	2618
21	42321384	2680	2330	2376	2352	2287	2620
22	42321571	2682	2329	2363	2341	2286	2621
23	42321704	2683	2321	2367	2336	2287	2624
24	42321864	2682	2311	2372	2329	2288	2626
25	42322024	2678	2315	2370	2325	2288	2628
26	42322184	2681	2307	2367	2324	2287	2629
27	42322372	2677	2311	2362	2324	2286	2632
28	42322504	2676	2305	2362	2325	2289	2632
29	42322664	2675	2309	2362	2327	2289	2633
30	42322824	2676	2305	2362	2329	2289	2636
31	42322984	2675	2297	2361	2329	2291	2637
32	42323174	2671	2300	2361	2328	2292	2640
33	42323304	2679	2307	2360	2327	2293	2641
34	42323464	2676	2301	2356	2325	2293	2641
35	42323624	2685	2307	2356	2324	2293	2643
36	42323784	2690	2310	2354	2318	2293	2644
37	42323972	2684	2314	2363	2311	2292	2644
38	42324104	2683	2321	2366	2302	2292	2646
39	42324264	2689	2319	2366	2292	2292	2648
40	42324424	2681	2322	2362	2283	2291	2649
41	42324584	2681	2329	2369	2269	2291	2649
42	42324771	2689	2337	2366	2251	2290	2652
43	42324904	2677	2339	2370	2240	2289	2653
44	42325064	2682	2333	2360	2224	2287	2656
45	42325224	2681	2338	2361	2211	2287	2657
46	42325384	2681	2333	2363	2197	2287	2657
47	42325572	2674	2329	2358	2183	2285	2659
48	42325704	2685	2329	2367	2176	2283	2660
49	42325864	2675	2316	2363	2173	2283	2661
50	42326024	2681	2315	2359	2172	2282	2659
51	42326184	2678	2305	2352	2175	2281	2658
52	42326371	2674	2299	2355	2182	2281	2655
53	42326504	2675	2298	2360	2186	2280	2656
54	42326664	2679	2302	2351	2189	2281	2653
55	42326824	2681	2304	2355	2192	2281	2651
56	42326984	2682	2304	2353	2196	2280	2650
57	42327172	2686	2303	2345	2200	2279	2648
58	42327304	2680	2306	2345	2205	2280	2648
59	42327464	2672	2295	2348	2209	2280	2647
60	42327624	2671	2308	2348	2210	2278	2645
61	42327784	2668	2310	2344	2213	2278	2646
62	42327971	2673	2312	2339	2213	2278	2646
63	42328104	2675	2314	2342	2208	2277	2645
64	42328264	2676	2317	2337	2204	2277	2644
65	42328424	2675	2324	2334	2197	2277	2647
66	42328584	2669	2325	2329	2185	2277	2648
67	42328772	2675	2317	2321	2177	2277	2650
68	42328904	2679	2313	2319	2174	2279	2651
69	42329064	2677	2299	2314	2171	2280	2652
70	42329224	2675	2290	2313	2172	2279	2653
71	42329384	2679	2287	2312	2178	2281	2653
72	42329571	2683	2284	2313	2185	2283	2652
73	42329704	2679	2286	2308	2191	2284	2649
74	42329864	2675	2276	2306	2199	2284	2648
75	42330024	2678	2274	2307	2209	2285	2647
76	42330184	2669	2278	2303	2217	2287	2647
77	42330372	2674	2289	2300	2218	2289	2644
78	42330504	2673	2295	2300	2215	2290	2644
79	42330664	2669	2299	2299	2211	2292	2645
80	42330824	2668	2291	2294	2211	2294	2645
81	42330984	2674	2297	2283	2211	2295	2648
82	42331171	2658	2297	2290	2204	2297	2648
83	42331304	2660	2291	2281	2202	2299	2650
84	42331464	2667	2294	2282	2198	2302	2652
85	42331624	2658	2290	2276	2199	2305	2654
86	42331784	2657	2286	2273	2199	2306	2657
87	42331972	2665	2267	2270	2199	2309	2661
88	42332104	2664	2274	2269	2203	2313	2664
89	42332264	2667	2265	2274	2206	2316	2666
90	42332424	2662	2275	2263	2211	2319	2667
91	42332584	2662	2270	2255	2218	2323	2671
92	42332771	2663	2265	2246	2225	2326	2672
93	42332904	2654	2252	2244	2233	2330	2675
94	42333064	2663	2250	2246	2247	2335	2677
95	42333224	2659	2243	2244	2254	2338	2680
96	42333384	2665	2249	2242	2259	2344	2683
97	42333572	2660	2255	2238	2254	2347	2686
98	42333704	2660	2262	2235	2252	2354	2689
99	42333864	2659	2264	2221	2244	2358	2695
100	42334024	2663	2258	2224	2237	2363	2701
101	42334184	2661	2262	2225	2234	2370	2704
102	42334371	2659	2243	2219	2227	2374	2710
103	42334504	2667	2254	2229	2220	2379	2713
104	42334664	2669	2258	2215	2211	2383	2719
105	42334824	2663	2250	2220	2201	2388	2722
106	42334984	2664	2253	2220	2192	2394	2725
107	42335172	2661	2255	2208	2185	2399	2730
108	42335304	2660	2239	2205	2185	2403	2733
109	42335464	2650	2231	2203	2186	2408	2737
110	42335624	2663	2233	2198	2191	2414	2740
111	42335784	2660	2218	2204	2199	2420	2743
112	42335971	2653	2226	2203	2204	2425	2745
113	42336104	2647	2221	2199	2210	2429	2747
114	42336264	2651	2226	2192	2217	2435	2751
115	42336424	2646	2224	2185	2224	2441	2754
116	42336584	2644	2222	2188	2234	2446	2757
117	42336772	2649	2217	2192	2241	2452	2761
118	42336904	2650	2219	2189	2241	2457	2765
119	42337064	2655	2223	2184	2235	2462	2768
120	42337224	2650	2230	2185	2229	2467	2772
121	42337384	2650	2236	2179	2217	2472	2778
122	42337571	2650	2233	2168	2205	2479	2785
123	42337704	2651	2235	2166	2197	2487	2791
124	42337864	2647	2229	2158	2189	2492	2796
125	42338024	2656	2219	2153	2180	2497	2801
126	42338184	2649	2211	2158	2178	2504	2808
127	42338372	2649	2213	2148	2178	2510	2813
128	42338504	2645	2206	2142	2174	2518	2815
129	42338664	2646	2208	2146	2171	2523	2818
130	42338824	2647	2211	2145	2171	2528	2823
131	42338984	2649	2213	2143	2175	2533	2825
132	42339171	2656	2200	2144	2181	2537	2827
133	42339304	2652	2201	2144	2185	2542	2826
134	42339464	2644	2204	2142	2193	2544	2828
135	42339624	2646	2195	2147	2198	2547	2829
136	42339784	2638	2211	2144	2200	2553	2827
137	42339972	2642	2201	2143	2206	2557	2830
138	42340104	2635	2197	2145	2216	2558	2832
139	42340264	2642	2204	2135	2219	2559	2834
140	42340424	2637	2207	2132	2221	2563	2831
141	42340584	2639	2208	2132	2223	2567	2833
142	42340771	2633	2207	2123	2226	2570	2835
143	42340904	2633	2211	2119	2225	2571	2837
144	42341064	2635	2210	2117	2221	2574	2842
145	42341224	2635	2212	2112	2224	2579	2843
146	42341384	2633	2208	2112	2225	2582	2846
147	42341572	2640	2201	2097	2227	2584	2849
148	42341704	2632	2208	2096	2229	2588	2851
149	42341864	2628	2213	2091	2230	2591	2854
150	42342024	2627	2208	2090	2233	2595	2854
151	42342184	2626	2203	2085	2240	2596	2856
152	42342371	2623	2200	2080	2246	2598	2856
153	42342504	2618	2204	2080	2249	2601	2856
154	42342664	2612	2206	2074	2258	2605	2857
155	42342824	2610	2211	2060	2264	2605	2857
156	42342984	2605	2210	2059	2266	2607	2858
157	42343172	2605	2214	2059	2270	2610	2859
158	42343304	2606	2212	2062	2275	2612	2858
159	42343464	2598	2215	2051	2281	2615	2858
160	42343624	2597	2228	2044	2274	2614	2857
161	42343784	2594	2217	2037	2269	2616	2861
162	42343971	2609	2212	2023	2259	2614	2862
163	42344104	2589	2234	2028	2266	2623	2864
164	42344264	2574	2206	2022	2274	2634	2868
165	42344424	2580	2195	2006	2273	2638	2870
166	42344584	2584	2211	2000	2279	2642	2873
167	42344772	2581	2209	2005	2288	2646	2873
168	42344904	2581	2209	2010	2294	2648	2872
169	42345064	2578	2211	2008	2306	2651	2872
170	42345224	2567	2213	2008	2315	2652	2872
171	42345384	2570	2218	1995	2322	2654	2868
172	42345571	2552	2217	1993	2329	2657	2870
173	42345704	2555	2221	1987	2330	2660	2872
174	42345864	2554	2218	1974	2331	2663	2873
175	42346024	2543	2213	1974	2333	2669	2876
176	42346184	2547	2221	1954	2328	2672	2878
177	42346372	2539	2225	1938	2323	2679	2881
178	42346504	2535	2218	1934	2319	2685	2888
179	42346664	2544	2218	1917	2313	2695	2895
180	42346824	2535	2216	1901	2310	2703	2901
181	42346984	2535	2211	1890	2308	2713	2907
182	42347171	2530	2217	1884	2306	2723	2915
183	42347304	2531	2211	1889	2303	2733	2920
184	42347464	2530	2208	1886	2303	2741	2925
185	42347624	2526	2197	1887	2305	2748	2931
186	42347784	2522	2192	1885	2310	2754	2935
187	42347972	2520	2200	1901	2314	2758	2936
188	42348104	2513	2203	1913	2319	2763	2935
189	42348264	2502	2209	1909	2322	2766	2936
190	42348424	2497	2211	1915	2325	2768	2937
191	42348584	2494	2214	1912	2325	2771	2936
192	42348771	2487	2208	1904	2320	2777	2939
193	42348904	2483	2208	1893	2316	2783	2939
194	42349064	2479	2204	1868	2308	2789	2944
195	42349224	2468	2189	1853	2303	2798	2949
196	42349384	2463	2189	1851	2299	2808	2953
197	42349572	2465	2187	1833	2294	2819	2955
198	42349704	2465	2187	1830	2294	2829	2960
199	42349864	2463	2189	1821	2293	2838	2964
200	42350024	2449	2193	1819	2296	2848	2967
201	42350184	2454	2200	1808	2299	2858	2968
202	42350371	2440	2205	1822	2305	2867	2970
203	42350504	2432	2206	1826	2312	2872	2971
204	42350664	2437	2207	1840	2317	2880	2971
205	42350824	2427	2218	1850	2325	2884	2971
206	42350984	2421	2223	1863	2331	2886	2969
207	42351172	2408	2222	1875	2339	2887	2967
208	42351304	2405	2229	1909	2349	2887	2964
209	42351464	2394	2225	1900	2354	2886	2960
210	42351624	2394	2225	1907	2363	2883	2956
211	42351784	2398	2217	1909	2371	2882	2955
212	42351971	2391	2220	1917	2382	2878	2952
213	42352104	2385	2225	1930	2388	2877	2950
214	42352264	2385	2235	1926	2384	2876	2945
215	42352424	2375	2237	1927	2382	2872	2944
216	42352584	2375	2227	1939	2383	2870	2944
217	42352772	2369	2227	1949	2387	2865	2940
218	42352904	2366	2230	1951	2387	2861	2936
219	42353064	2361	2239	1950	2385	2855	2932
220	42353224	2357	2234	1940	2382	2851	2932
221	42353384	2352	2239	1928	2379	2848	2931
222	42353571	2345	2242	1931	2374	2846	2929
223	42353704	2339	2248	1926	2371	2844	2927
224	42353864	2334	2254	1933	2370	2841	2923
225	42354024	2326	2262	1929	2367	2839	2921
226	42354184	2323	2258	1929	2365	2837	2917
227	42354372	2300	2267	1933	2363	2831	2914
228	42354504	2301	2261	1943	2366	2828	2913
229	42354664	2292	2257	1959	2374	2821	2910
230	42354824	2276	2264	1971	2384	2813	2905
231	42354984	2269	2273	1980	2391	2805	2898
232	42355171	2259	2276	1980	2398	2795	2893
233	42355304	2253	2269	1976	2405	2788	2891
234	42355464	2245	2266	1970	2413	2779	2891
235	42355624	2247	2273	1969	2419	2774	2887
236	42355784	2236	2275	1971	2425	2766	2883
237	42355972	2220	2286	1967	2424	2757	2880
238	42356104	2215	2286	1961	2423	2752	2879
239	42356264	2204	2295	1965	2421	2747	2879
240	42356424	2200	2300	1963	2414	2741	2875
241	42356584	2197	2311	1960	2404	2736	2872
242	42356771	2189	2310	1964	2393	2731	2873
243	42356904	2182	2306	1960	2385	2728	2874
244	42357064	2175	2311	1954	2377	2724	2871
245	42357224	2165	2307	1966	2372	2720	2871
246	42357384	2158	2300	1970	2373	2712	2868
247	42357572	2150	2304	1975	2373	2706	2862
248	42357704	2150	2300	1971	2376	2703	2860
249	42357864	2135	2301	1978	2381	2698	2857
250	42358024	2133	2305	1982	2388	2692	2852
251	42358184	2124	2319	1983	2397	2686	2848
252	42358371	2122	2310	2003	2405	2678	2841
253	42358504	2120	2304	1975	2409	2675	2837
254	42358664	2105	2307	1963	2407	2671	2835
255	42358824	2088	2315	1957	2410	2669	2835
256	42358984	2095	2313	1967	2413	2668	2832
257	42359172	2090	2321	1974	2412	2663	2826
258	42359304	2086	2321	1969	2410	2661	2825
259	42359464	2078	2331	1970	2407	2658	2823
260	42359624	2065	2330	1978	2403	2656	2823
261	42359784	2060	2334	1982	2402	2653	2818
262	42359971	2050	2330	1979	2401	2650	2815
263	42360104	2041	2335	1973	2399	2647	2812
264	42360264	2040	2327	1971	2395	2646	2812
265	42360424	2038	2338	1976	2394	2646	2810
266	42360584	2035	2339	1987	2397	2645	2807
267	42360772	2038	2329	1998	2400	2641	2801
268	42360904	2032	2331	2001	2401	2637	2799
269	42361064	2035	2332	1990	2401	2634	2796
270	42361224	2026	2322	2000	2405	2633	2794
271	42361384	2024	2318	2007	2415	2628	2792
272	42361571	2024	2320	2026	2428	2622	2784
273	42361704	2021	2336	2031	2432	2615	2781
274	42361864	2013	2342	2022	2432	2610	2775
275	42362024	2011	2331	2019	2432	2607	2773
276	42362184	2008	2331	2017	2434	2604	2773
277	42362372	2001	2336	2007	2435	2599	2770
278	42362504	2004	2339	2007	2433	2600	2768
279	42362664	1997	2343	2003	2429	2598	2765
280	42362824	1994	2350	2020	2429	2595	2764
281	42362984	1989	2351	2024	2424	2593	2763
282	42363171	1987	2348	2036	2421	2589	2760
283	42363304	1984	2348	2027	2417	2587	2758
284	42363464	1983	2358	2029	2413	2585	2757
285	42363624	1975	2338	2032	2415	2583	2756
286	42363784	1977	2344	2045	2419	2578	2754
287	42363970	1977	2341	2044	2421	2574	2749
288	42364104	1971	2343	2047	2426	2570	2745
289	42364264	1962	2342	2039	2426	2567	2746
290	42364424	1959	2345	2036	2430	2565	2744
291	42364584	1957	2341	2035	2435	2563	2741
292	42364771	1963	2353	2033	2433	2560	2740
293	42364904	1953	2349	2030	2434	2560	2737
294	42365064	1951	2353	2022	2431	2558	2737
295	42365224	1948	2351	2023	2429	2559	2736
296	42365384	1939	2349	2024	2428	2559	2735
297	42365572	1947	2348	2026	2423	2558	2733
298	42365704	1940	2358	2040	2422	2559	2735
299	42365864	1935	2347	2047	2426	2558	2735
300	42366024	1943	2342	2054	2429	2557	2732
301	42366184	1938	2347	2061	2433	2555	2730
302	42366371	1936	2345	2062	2436	2551	2727
303	42366504	1933	2342	2072	2441	2549	2729
304	42366664	1930	2348	2080	2446	2549	2728
305	42366824	1935	2347	2087	2451	2545	2727
306	42366984	1921	2346	2088	2455	2539	2724
307	42367172	1928	2362	2089	2451	2535	2720
308	42367304	1917	2354	2083	2452	2534	2719
309	42367464	1909	2359	2080	2448	2535	2720
310	42367624	1905	2350	2072	2442	2533	2721
311	42367784	1906	2355	2064	2438	2532	2723
312	42367971	1907	2357	2078	2435	2530	2721
313	42368104	1915	2358	2083	2433	2531	2722
314	42368264	1909	2359	2087	2428	2528	2720
315	42368424	1897	2364	2090	2425	2528	2720
316	42368584	1902	2359	2091	2425	2527	2719
317	42368772	1899	2354	2098	2425	2523	2717
318	42368904	1900	2358	2092	2424	2523	2715
319	42369064	1895	2362	2095	2425	2522	2712
320	42369224	1894	2361	2101	2423	2519	2712
321	42369384	1888	2367	2111	2427	2517	2710
322	42369571	1895	2373	2118	2428	2512	2704
323	42369704	1896	2369	2129	2427	2510	2701
324	42369864	1888	2363	2108	2424	2506	2701
325	42370024	1881	2368	2119	2423	2505	2701
326	42370184	1885	2365	2114	2423	2506	2700
327	42370371	1879	2357	2111	2422	2504	2699
328	42370504	1874	2361	2112	2424	2504	2699
329	42370664	1877	2355	2111	2426	2503	2699
330	42370824	1873	2358	2117	2427	2502	2697
331	42370984	1878	2362	2126	2427	2500	2698
332	42371171	1882	2357	2144	2429	2497	2696
333	42371304	1884	2355	2148	2429	2493	2697
334	42371464	1889	2367	2160	2433	2489	2696
335	42371624	1887	2359	2161	2433	2485	2695
336	42371784	1890	2361	2168	2435	2480	2693
337	42371972	1878	2363	2164	2440	2475	2692
338	42372104	1878	2358	2174	2444	2471	2692
339	42372264	1881	2363	2177	2447	2467	2690
340	42372424	1877	2376	2177	2453	2459	2688
341	42372584	1868	2371	2177	2458	2453	2687
342	42372771	1874	2375	2176	2459	2445	2684
343	42372904	1877	2379	2175	2461	2442	2682
344	42373064	1873	2362	2161	2460	2437	2680
345	42373224	1871	2387	2170	2457	2432	2679
346	42373384	1862	2390	2167	2453	2430	2676
347	42373572	1855	2397	2148	2448	2425	2671
348	42373704	1856	2400	2146	2443	2427	2672
349	42373864	1849	2394	2153	2441	2426	2671
350	42374024	1853	2398	2155	2438	2424	2669
351	42374184	1856	2394	2170	2441	2422	2667
352	42374371	1850	2401	2174	2443	2419	2661
353	42374504	1857	2400	2176	2444	2417	2659
354	42374664	1864	2387	2177	2445	2414	2657
355	42374824	1858	2378	2182	2446	2410	2652
356	42374984	1866	2378	2191	2451	2406	2648
357	42375172	1863	2381	2190	2453	2399	2643
358	42375304	1867	2382	2208	2455	2393	2640
359	42375464	1863	2382	2208	2457	2386	2640
360	42375624	1861	2385	2209	2453	2380	2633
361	42375784	1863	2387	2208	2453	2374	2631
362	42375971	1862	2381	2217	2453	2367	2628
363	42376104	1858	2390	2210	2450	2362	2628
364	42376264	1865	2384	2206	2451	2356	2625
365	42376424	1853	2387	2203	2450	2353	2620
366	42376584	1861	2398	2193	2448	2347	2618
367	42376773	1853	2379	2185	2447	2342	2617
368	42376904	1847	2388	2186	2451	2339	2617
369	42377064	1855	2385	2177	2448	2341	2619
370	42377224	1854	2382	2181	2453	2337	2617
371	42377384	1854	2391	2179	2454	2331	2616
372	42377571	1854	2384	2185	2451	2327	2614
373	42377704	1856	2386	2174	2450	2327	2614
374	42377864	1848	2389	2179	2449	2323	2613
375	42378024	1856	2387	2181	2448	2321	2615
376	42378184	1854	2392	2172	2442	2320	2616
377	42378372	1845	2376	2173	2441	2319	2616
378	42378504	1850	2378	2171	2439	2320	2615
379	42378664	1846	2379	2171	2440	2318	2614
380	42378824	1846	2366	2176	2441	2317	2613
381	42378984	1845	2369	2179	2439	2316	2614
382	42379171	1846	2354	2171	2442	2315	2613
383	42379304	1845	2361	2167	2446	2315	2611
384	42379464	1842	2360	2160	2452	2315	2612
385	42379624	1836	2363	2158	2455	2315	2610
386	42379784	1835	2367	2171	2455	2319	2609
387	42379972	1842	2361	2164	2455	2318	2610
388	42380104	1842	2370	2155	2457	2320	2608
389	42380264	1833	2381	2148	2457	2323	2608
390	42380424	1841	2367	2155	2456	2325	2608
391	42380584	1833	2367	2161	2461	2327	2607
392	42380771	1833	2370	2146	2458	2327	2607
393	42380904	1834	2373	2155	2461	2330	2607
394	42381064	1825	2370	2163	2461	2331	2608
395	42381224	1820	2364	2163	2463	2333	2608
396	42381384	1826	2368	2171	2464	2332	2611
397	42381572	1836	2371	2220	2463	2320	2609
398	42381704	1818	2384	2157	2472	2339	2611
399	42381864	1823	2384	2178	2459	2332	2609
400	42382024	1833	2369	2167	2457	2336	2619
401	42382184	1835	2357	2166	2458	2336	2622
402	42382371	1829	2356	2168	2463	2335	2623
403	42382504	1833	2360	2174	2467	2337	2624
404	42382664	1825	2374	2168	2468	2339	2629
405	42382824	1849	2367	2174	2467	2335	2630
406	42382984	1849	2366	2178	2471	2334	2632
407	42383171	1846	2364	2184	2472	2332	2633
408	42383304	1840	2369	2179	2473	2332	2631
409	42383464	1840	2369	2181	2473	2330	2632
410	42383624	1854	2369	2183	2478	2327	2632
411	42383784	1837	2378	2183	2475	2325	2633
412	42383971	1849	2384	2181	2477	2324	2629
413	42384104	1837	2384	2179	2476	2324	2627
414	42384264	1849	2390	2171	2475	2324	2627
415	42384424	1834	2395	2170	2474	2325	2626
416	42384584	1835	2387	2162	2473	2327	2623
417	42384772	1836	2392	2164	2470	2328	2621
418	42384904	1820	2393	2164	2471	2331	2620
419	42385064	1823	2391	2165	2466	2332	2619
420	42385224	1829	2392	2162	2463	2334	2619
421	42385384	1838	2391	2166	2459	2336	2618
422	42385571	1824	2385	2179	2457	2338	2617
423	42385704	1830	2381	2177	2457	2338	2618
424	42385864	1833	2365	2179	2462	2339	2622
425	42386024	1837	2375	2189	2466	2337	2620
426	42386184	1839	2375	2189	2473	2333	2620
427	42386372	1845	2380	2198	2475	2329	2619
428	42386504	1842	2388	2208	2480	2326	2620
429	42386664	1845	2386	2215	2482	2322	2618
430	42386824	1849	2387	2215	2483	2317	2617
431	42386984	1849	2392	2212	2483	2312	2615
432	42387171	1849	2404	2200	2478	2308	2613
433	42387304	1851	2398	2207	2477	2307	2615
434	42387464	1841	2400	2200	2472	2307	2612
435	42387624	1844	2384	2194	2471	2304	2611
436	42387784	1846	2382	2198	2470	2302	2612
437	42387972	1839	2382	2198	2470	2300	2610
438	42388104	1843	2380	2198	2472	2302	2610
439	42388264	1839	2388	2200	2473	2299	2609
440	42388424	1824	2384	2202	2475	2298	2608
441	42388584	1833	2382	2198	2473	2299	2608
442	42388771	1837	2377	2200	2475	2297	2608
443	42388904	1843	2377	2189	2477	2298	2607
444	42389064	1833	2375	2191	2480	2298	2606
445	42389224	1840	2373	2195	2483	2298	2608
446	42389384	1845	2367	2187	2489	2297	2607
447	42389571	1837	2375	2184	2495	2298	2606
448	42389704	1835	2375	2178	2500	2298	2606
449	42389864	1834	2374	2176	2504	2298	2605
450	42390024	1835	2371	2179	2508	2299	2605
451	42390184	1831	2379	2185	2512	2299	2604
452	42390371	1837	2388	2196	2513	2297	2599
453	42390504	1846	2398	2197	2508	2295	2598
454	42390664	1836	2392	2191	2502	2295	2597
455	42390824	1831	2402	2200	2497	2294	2596
456	42390984	1841	2395	2197	2493	2292	2594
457	42391172	1839	2391	2202	2490	2289	2592
458	42391304	1845	2381	2202	2491	2286	2592
459	42391464	1841	2383	2195	2492	2285	2591
460	42391624	1842	2374	2198	2494	2283	2589
461	42391784	1839	2377	2197	2501	2279	2588
462	42391971	1832	2376	2199	2503	2276	2586
463	42392104	1833	2371	2200	2508	2276	2585
464	42392264	1834	2377	2195	2515	2273	2585
465	42392424	1843	2361	2191	2522	2271	2583
466	42392584	1841	2362	2190	2526	2268	2584
467	42392772	1837	2377	2186	2533	2266	2580
468	42392904	1834	2379	2177	2530	2266	2579
469	42393064	1830	2395	2173	2528	2268	2579
470	42393224	1841	2386	2192	2523	2265	2579
471	42393384	1831	2386	2182	2520	2267	2578
472	42393571	1829	2368	2162	2514	2272	2580
473	42393704	1843	2360	2163	2515	2273	2585
474	42393864	1840	2338	2173	2522	2270	2583
475	42394024	1840	2350	2175	2534	2272	2585
476	42394184	1832	2361	2191	2538	2274	2586
477	42394372	1833	2370	2191	2540	2273	2585
478	42394504	1837	2367	2197	2539	2273	2586
479	42394664	1845	2364	2199	2538	2271	2587
480	42394824	1839	2353	2196	2539	2270	2590
481	42394984	1837	2354	2201	2542	2269	2590
482	42395171	1841	2344	2195	2547	2266	2591
483	42395304	1844	2356	2204	2553	2266	2592
484	42395464	1835	2347	2197	2559	2264	2593
485	42395624	1838	2339	2194	2566	2263	2591
486	42395784	1831	2342	2184	2583	2260	2592
487	42395973	1840	2336	2187	2599	2259	2591
488	42396104	1835	2340	2185	2611	2257	2592
489	42396264	1832	2340	2172	2624	2257	2592
490	42396424	1843	2334	2173	2644	2257	2593
491	42396584	1840	2315	2170	2667	2259	2595
492	42396771	1844	2308	2163	2692	2259	2598
493	42396904	1837	2291	2150	2717	2259	2600
494	42397064	1845	2283	2153	2744	2259	2603
495	42397224	1828	2352	2171	2748	2259	2595
496	42397384	1827	2401	2184	2748	2261	2590
497	42397572	1833	2425	2179	2728	2264	2587
498	42397704	1832	2430	2175	2710	2267	2589
499	42397864	1830	2426	2172	2691	2269	2592
500	42398024	1821	2397	2176	2675	2271	2593
501	42398184	1820	2386	2176	2663	2273	2596
502	42398371	1826	2368	2181	2654	2273	2597
503	42398504	1824	2357	2182	2654	2277	2599
504	42398664	1825	2329	2200	2661	2275	2601
505	42398824	1844	2327	2186	2671	2274	2605
506	42398984	1839	2297	2187	2692	2270	2611
507	42399172	1847	2261	2181	2726	2269	2614
508	42399304	1837	2255	2188	2761	2265	2618
509	42399464	1850	2265	2184	2798	2263	2615
510	42399624	1839	2284	2182	2834	2260	2614
511	42399784	1843	2298	2177	2862	2262	2615
512	42399971	1836	2318	2171	2889	2261	2614
513	42400104	1840	2348	2174	2896	2262	2612
514	42400264	1832	2386	2182	2896	2263	2609
515	42400424	1831	2411	2191	2889	2266	2601
516	42400584	1836	2433	2191	2871	2269	2601
517	42400772	1828	2428	2193	2850	2270	2595
518	42400904	1836	2419	2181	2834	2271	2595
519	42401064	1835	2418	2178	2817	2273	2592
520	42401224	1834	2395	2187	2805	2275	2591
521	42401384	1828	2377	2187	2797	2276	2589
522	42401571	1837	2363	2195	2793	2277	2589
523	42401704	1840	2351	2195	2796	2277	2589
524	42401864	1849	2331	2189	2806	2277	2589
525	42402024	1854	2299	2194	2819	2275	2592
526	42402184	1849	2284	2203	2845	2272	2594
527	42402371	1845	2272	2195	2881	2264	2592
528	42402504	1848	2267	2206	2912	2266	2593
529	42402664	1849	2279	2216	2946	2264	2587
530	42402824	1848	2292	2215	2977	2256	2588
531	42402984	1851	2306	2214	3008	2252	2582
532	42403171	1842	2307	2209	3036	2250	2582
533	42403304	1834	2324	2213	3056	2250	2578
534	42403464	1842	2337	2212	3079	2250	2577
535	42403624	1840	2340	2208	3097	2251	2573
536	42403784	1837	2339	2192	3113	2251	2567
537	42403972	1834	2344	2194	3134	2248	2565
538	42404104	1822	2349	2192	3146	2249	2562
539	42404264	1831	2354	2191	3164	2255	2556
540	42404425	1833	2350	2188	3181	2257	2552
541	42404584	1832	2339	2190	3197	2262	2548
542	42404771	1830	2344	2188	3213	2264	2540
543	42404904	1833	2365	2190	3224	2266	2535
544	42405064	1827	2371	2197	3235	2270	2530
545	42405224	1828	2385	2202	3239	2273	2523
546	42405384	1823	2389	2199	3235	2275	2519
547	42405572	1828	2390	2204	3230	2275	2512
548	42405704	1832	2391	2209	3228	2278	2511
549	42405864	1828	2387	2219	3225	2281	2507
550	42406024	1836	2366	2227	3220	2283	2503
551	42406184	1834	2357	2233	3215	2282	2500
552	42406371	1837	2368	2224	3213	2286	2496
553	42406504	1840	2368	2224	3202	2286	2491
554	42406664	1842	2354	2223	3207	2287	2492
555	42406824	1846	2340	2230	3215	2290	2488
556	42406984	1845	2333	2221	3224	2293	2488
557	42407172	1844	2313	2234	3250	2288	2477
558	42407304	1855	2319	2246	3265	2292	2473
559	42407464	1848	2336	2258	3275	2295	2466
560	42407624	1839	2358	2268	3282	2294	2461
561	42407784	1848	2382	2274	3285	2294	2451
562	42407971	1855	2388	2252	3269	2293	2443
563	42408104	1861	2375	2261	3256	2292	2438
564	42408264	1862	2375	2259	3240	2294	2435
565	42408424	1869	2371	2269	3224	2294	2433
566	42408584	1850	2367	2283	3209	2296	2427
567	42408771	1858	2358	2270	3185	2301	2422
568	42408904	1861	2336	2271	3170	2304	2423
569	42409064	1857	2303	2271	3162	2307	2427
570	42409224	1866	2287	2282	3154	2311	2427
571	42409384	1856	2267	2286	3154	2317	2428
572	42409571	1854	2259	2288	3163	2320	2423
573	42409704	1847	2264	2296	3161	2320	2434
574	42409864	1862	2281	2304	3163	2326	2433
575	42410024	1860	2299	2308	3154	2329	2430
576	42410184	1849	2308	2322	3138	2330	2431
577	42410372	1855	2341	2331	3102	2329	2434
578	42410504	1852	2364	2338	3075	2329	2433
579	42410664	1843	2373	2337	3032	2329	2434
580	42410824	1854	2382	2336	2989	2332	2433
581	42410984	1859	2390	2349	2946	2328	2433
582	42411171	1856	2385	2359	2897	2324	2431
583	42411304	1863	2354	2367	2866	2325	2435
584	42411464	1867	2306	2366	2837	2323	2440
585	42411624	1866	2254	2385	2823	2321	2444
586	42411784	1871	2225	2392	2820	2321	2446
587	42411972	1871	2200	2394	2827	2321	2448
588	42412104	1866	2193	2395	2835	2322	2449
589	42412264	1871	2175	2395	2855	2320	2451
590	42412424	1874	2163	2396	2874	2321	2453
591	42412584	1868	2157	2399	2896	2322	2457
592	42412771	1872	2161	2391	2922	2321	2457
593	42412904	1863	2171	2392	2939	2323	2457
594	42413064	1866	2188	2393	2963	2328	2461
595	42413224	1856	2205	2387	2979	2330	2464
596	42413384	1859	2225	2393	2989	2334	2465
597	42413572	1854	2255	2397	2991	2335	2465
598	42413704	1863	2288	2390	2984	2337	2466
599	42413864	1854	2317	2395	2969	2340	2465
600	42414024	1859	2353	2387	2944	2342	2464
601	42414184	1868	2354	2395	2914	2341	2464
602	42414371	1880	2338	2400	2877	2342	2467
603	42414504	1883	2327	2413	2848	2342	2470
604	42414664	1886	2315	2417	2823	2343	2471
605	42414824	1886	2310	2424	2802	2343	2470
606	42414984	1891	2290	2417	2786	2339	2469
607	42415175	1893	2256	2425	2781	2341	2471
608	42415304	1899	2245	2418	2782	2341	2474
609	42415464	1890	2239	2419	2788	2345	2473
610	42415624	1887	2235	2425	2799	2349	2473
611	42415784	1900	2234	2420	2814	2353	2470
612	42415971	1895	2234	2413	2830	2355	2469
613	42416104	1887	2253	2421	2843	2360	2469
614	42416264	1885	2264	2408	2854	2367	2467
615	42416424	1891	2279	2416	2862	2371	2464
616	42416584	1890	2306	2418	2864	2374	2460
617	42416772	1895	2289	2421	2869	2375	2455
618	42416904	1895	2301	2417	2871	2382	2455
619	42417064	1906	2296	2422	2872	2386	2452
620	42417224	1919	2291	2424	2872	2390	2451
621	42417384	1915	2304	2429	2874	2395	2450
622	42417571	1915	2291	2433	2872	2401	2448
623	42417704	1919	2290	2440	2871	2405	2449
624	42417864	1936	2284	2440	2868	2408	2449
625	42418024	1942	2286	2449	2864	2410	2449
626	42418184	1924	2284	2445	2857	2414	2449
627	42418372	1931	2292	2449	2851	2422	2448
628	42418504	1926	2294	2452	2841	2425	2448
629	42418664	1922	2307	2462	2827	2427	2447
630	42418824	1925	2315	2451	2817	2432	2449
631	42418984	1928	2323	2450	2802	2433	2447
632	42419171	1922	2330	2455	2792	2443	2446
633	42419304	1919	2333	2448	2782	2450	2447
634	42419464	1930	2343	2456	2772	2454	2444
635	42419624	1933	2347	2464	2766	2458	2442
636	42419784	1952	2331	2467	2760	2466	2441
637	42419972	1957	2315	2473	2759	2471	2439
638	42420104	1964	2307	2481	2761	2476	2439
639	42420264	1959	2295	2489	2767	2482	2440
640	42420424	1971	2290	2496	2775	2489	2435
641	42420584	1969	2280	2507	2787	2494	2429
642	42420771	1985	2276	2518	2797	2497	2428
643	42420904	1991	2277	2523	2803	2501	2426
644	42421064	1999	2278	2520	2807	2506	2422
645	42421224	1994	2293	2521	2812	2511	2419
646	42421384	1993	2307	2519	2808	2519	2416
647	42421575	1997	2337	2508	2795	2526	2413
648	42421704	1999	2359	2505	2782	2531	2416
649	42421864	1997	2374	2505	2754	2535	2411
650	42422024	2007	2389	2507	2727	2539	2411
651	42422184	2003	2383	2506	2696	2542	2411
652	42422371	2015	2381	2514	2663	2545	2409
653	42422504	2035	2380	2515	2641	2551	2409
654	42422664	2035	2342	2529	2627	2553	2409
655	42422824	2037	2304	2537	2626	2559	2413
656	42422984	2055	2275	2553	2630	2562	2415
657	42423172	2065	2233	2569	2643	2568	2417
658	42423304	2067	2233	2593	2664	2576	2415
659	42423464	2081	2184	2621	2698	2577	2420
660	42423624	2083	2158	2641	2729	2581	2427
661	42423784	2091	2168	2661	2760	2584	2427
662	42423971	2086	2181	2665	2792	2588	2425
663	42424104	2079	2195	2664	2807	2592	2425
664	42424264	2074	2226	2660	2816	2592	2423
665	42424424	2076	2256	2649	2815	2595	2420
666	42424584	2079	2296	2631	2800	2596	2418
667	42424772	2082	2341	2614	2768	2596	2416
668	42424904	2084	2363	2599	2739	2597	2416
669	42425064	2087	2369	2580	2703	2598	2419
670	42425224	2086	2377	2582	2679	2600	2421
671	42425384	2093	2355	2572	2654	2606	2429
672	42425571	2107	2351	2567	2627	2614	2431
673	42425704	2114	2341	2581	2619	2618	2435
674	42425864	2131	2304	2609	2621	2626	2437
675	42426024	2152	2252	2647	2619	2627	2446
676	42426184	2175	2235	2669	2624	2630	2451
677	42426372	2188	2217	2683	2634	2632	2456
678	42426504	2191	2224	2691	2641	2633	2460
679	42426664	2188	2217	2703	2651	2633	2461
680	42426824	2179	2210	2713	2661	2633	2464
681	42426984	2180	2225	2708	2665	2633	2468
682	42427171	2177	2235	2700	2663	2634	2468
683	42427304	2171	2259	2682	2659	2636	2471
684	42427464	2163	2288	2692	2652	2637	2472
685	42427624	2163	2282	2661	2642	2638	2474
686	42427784	2163	2291	2641	2634	2642	2476
687	42427967	2163	2303	2630	2629	2647	2479
688	42428104	2168	2317	2611	2629	2656	2480
689	42428264	2162	2320	2609	2628	2665	2480
690	42428424	2177	2326	2607	2635	2672	2481
691	42428584	2191	2314	2614	2643	2681	2479
692	42428771	2221	2325	2633	2645	2687	2477
693	42428904	2249	2329	2665	2643	2690	2476
694	42429064	2280	2321	2707	2640	2687	2478
695	42429224	2303	2293	2748	2635	2681	2484
696	42429384	2331	2259	2766	2632	2675	2490
697	42429572	2350	2248	2791	2629	2668	2493
698	42429704	2342	2234	2792	2629	2661	2498
699	42429864	2342	2223	2784	2629	2653	2499
700	42430024	2337	2236	2785	2624	2647	2500
701	42430184	2328	2243	2781	2619	2643	2501
702	42430371	2309	2258	2760	2609	2638	2503
703	42430504	2315	2270	2739	2604	2634	2507
704	42430664	2296	2282	2731	2596	2633	2510
705	42430824	2278	2294	2713	2588	2633	2513
706	42430984	2265	2306	2691	2580	2636	2515
707	42431172	2256	2313	2666	2570	2640	2518
708	42431304	2257	2323	2652	2565	2645	2519
709	42431464	2262	2331	2638	2562	2651	2521
710	42431624	2270	2327	2644	2566	2658	2521
711	42431784	2288	2320	2668	2567	2663	2520
712	42431971	2324	2327	2707	2562	2665	2517
713	42432104	2348	2334	2731	2553	2664	2518
714	42432264	2364	2327	2772	2550	2657	2519
715	42432424	2397	2304	2795	2548	2646	2524
716	42432584	2411	2278	2805	2547	2637	2528
717	42432772	2406	2285	2800	2547	2625	2528
718	42432904	2413	2275	2807	2546	2620	2531
719	42433064	2395	2285	2803	2545	2613	2534
720	42433224	2384	2291	2783	2540	2608	2536
721	42433384	2370	2292	2765	2534	2605	2537
722	42433571	2367	2301	2747	2525	2601	2542
723	42433704	2362	2309	2729	2520	2603	2544
724	42433864	2352	2315	2717	2516	2604	2548
725	42434024	2345	2320	2695	2510	2606	2551
726	42434184	2350	2327	2682	2508	2611	2554
727	42434369	2345	2327	2679	2509	2614	2553
728	42434504	2358	2323	2685	2515	2618	2553
729	42434664	2384	2316	2695	2520	2619	2552
730	42434824	2398	2331	2701	2519	2619	2549
731	42434984	2414	2337	2709	2516	2619	2547
732	42435171	2417	2360	2729	2510	2616	2544
733	42435304	2432	2343	2752	2508	2611	2546
734	42435464	2460	2335	2773	2506	2601	2548
735	42435624	2477	2331	2790	2502	2594	2549
736	42435784	2476	2333	2781	2499	2584	2549
737	42435972	2478	2330	2781	2492	2575	2549
738	42436104	2475	2333	2771	2488	2567	2549
739	42436264	2466	2315	2763	2485	2562	2549
740	42436424	2461	2320	2754	2483	2558	2552
741	42436584	2454	2319	2728	2482	2555	2554
742	42436771	2442	2319	2708	2479	2556	2553
743	42436904	2436	2325	2699	2477	2557	2556
744	42437064	2433	2335	2681	2477	2561	2556
745	42437224	2430	2340	2673	2474	2562	2558
746	42437384	2421	2339	2660	2474	2566	2559
747	42437572	2426	2344	2658	2477	2571	2559
748	42437704	2432	2335	2653	2482	2576	2559
749	42437864	2453	2333	2672	2487	2579	2558
750	42438024	2457	2349	2679	2487	2582	2557
751	42438184	2472	2361	2699	2487	2581	2557
752	42438371	2497	2365	2704	2486	2580	2559
753	42438504	2495	2368	2714	2486	2578	2557
754	42438664	2499	2379	2713	2484	2573	2556
755	42438824	2509	2375	2717	2483	2568	2554
756	42438984	2518	2374	2708	2479	2565	2551
757	42439172	2532	2369	2703	2476	2559	2549
758	42439304	2531	2369	2689	2476	2558	2548
759	42439464	2522	2362	2683	2473	2556	2549
760	42439624	2533	2369	2673	2471	2555	2549
761	42439784	2535	2367	2660	2468	2555	2549
762	42439971	2522	2379	2653	2463	2555	2548
763	42440104	2531	2389	2647	2459	2555	2550
764	42440264	2524	2384	2631	2454	2555	2549
765	42440424	2528	2386	2634	2451	2557	2549
766	42440584	2519	2384	2630	2451	2558	2547
767	42440772	2525	2383	2621	2452	2561	2544
768	42440904	2523	2362	2626	2453	2563	2543
769	42441064	2532	2377	2620	2454	2567	2542
770	42441224	2535	2383	2630	2455	2568	2539
771	42441384	2540	2382	2643	2456	2569	2537
772	42441571	2551	2381	2654	2456	2569	2539
773	42441704	2555	2387	2661	2456	2570	2539
774	42441864	2563	2380	2662	2456	2569	2538
775	42442024	2565	2381	2660	2459	2566	2536
776	42442184	2574	2383	2660	2461	2565	2535
777	42442372	2572	2377	2650	2461	2563	2533
778	42442504	2572	2380	2643	2464	2563	2531
779	42442664	2589	2381	2636	2462	2565	2534
780	42442824	2577	2381	2619	2464	2565	2535
781	42442984	2578	2382	2611	2464	2569	2536
782	42443171	2578	2389	2601	2464	2570	2536
783	42443304	2580	2389	2598	2465	2573	2536
784	42443464	2589	2396	2591	2466	2576	2537
785	42443624	2592	2400	2591	2466	2578	2538
786	42443784	2591	2395	2588	2468	2582	2539
787	42443972	2592	2390	2585	2472	2585	2538
788	42444104	2601	2387	2592	2474	2588	2538
789	42444264	2607	2394	2591	2475	2590	2541
790	42444424	2615	2411	2600	2480	2592	2540
791	42444584	2619	2399	2595	2483	2594	2540
792	42444771	2624	2406	2598	2486	2595	2541
793	42444904	2625	2404	2594	2489	2594	2542
794	42445064	2623	2401	2592	2494	2595	2543
795	42445224	2634	2403	2593	2497	2595	2541
796	42445384	2639	2404	2585	2502	2596	2541
797	42445572	2636	2413	2586	2501	2595	2539
798	42445704	2646	2415	2577	2502	2595	2541
799	42445864	2644	2416	2576	2501	2594	2540
800	42446024	2649	2426	2571	2501	2596	2539
801	42446184	2658	2435	2566	2500	2593	2539
802	42446371	2648	2432	2562	2497	2593	2536
803	42446504	2662	2431	2559	2494	2593	2537
804	42446664	2663	2434	2560	2491	2592	2537
805	42446824	2663	2431	2556	2490	2591	2535
806	42446984	2662	2423	2552	2493	2592	2535
807	42447172	2667	2429	2551	2493	2589	2534
808	42447304	2669	2430	2547	2492	2590	2532
809	42447464	2673	2445	2549	2490	2587	2532
810	42447624	2682	2443	2550	2488	2584	2532
811	42447784	2689	2443	2559	2485	2581	2531
812	42447971	2687	2437	2565	2481	2576	2533
813	42448104	2689	2441	2571	2479	2573	2532
814	42448264	2683	2435	2573	2478	2568	2533
815	42448424	2682	2432	2567	2480	2563	2532
816	42448584	2692	2435	2563	2477	2560	2533
817	42448772	2692	2431	2559	2476	2555	2533
818	42448904	2694	2433	2557	2480	2552	2534
819	42449064	2692	2425	2557	2484	2549	2537
820	42449224	2688	2415	2557	2485	2547	2538
821	42449384	2683	2422	2550	2490	2544	2539
822	42449571	2686	2419	2555	2496	2538	2541
823	42449704	2694	2426	2563	2497	2536	2542
824	42449864	2692	2419	2562	2499	2531	2543
825	42450024	2690	2418	2565	2501	2527	2545
826	42450184	2684	2418	2563	2502	2523	2547
827	42450372	2685	2409	2566	2503	2516	2550
828	42450504	2687	2416	2557	2504	2512	2553
829	42450664	2690	2408	2560	2506	2508	2555
830	42450824	2695	2407	2554	2509	2505	2558
831	42450984	2689	2407	2552	2515	2500	2559
832	42451171	2690	2411	2546	2521	2499	2562
833	42451304	2689	2417	2541	2525	2498	2564
834	42451464	2684	2427	2531	2530	2496	2564
835	42451624	2685	2433	2530	2531	2495	2566
836	42451784	2689	2443	2517	2532	2493	2566
837	42451972	2691	2455	2513	2529	2491	2567
838	42452104	2694	2461	2511	2527	2491	2568
839	42452264	2689	2467	2512	2523	2489	2571
840	42452424	2700	2457	2513	2523	2486	2571
841	42452584	2694	2464	2510	2520	2483	2576
842	42452771	2697	2466	2503	2516	2479	2578
843	42452904	2701	2469	2504	2514	2477	2578
844	42453064	2697	2478	2503	2513	2471	2580
845	42453224	2703	2473	2503	2512	2466	2582
846	42453384	2702	2479	2501	2510	2458	2583
847	42453572	2697	2479	2494	2508	2452	2582
848	42453704	2694	2479	2494	2507	2451	2583
849	42453864	2695	2479	2485	2510	2444	2583
850	42454024	2699	2477	2484	2513	2440	2585
851	42454184	2689	2475	2475	2516	2438	2585
852	42454371	2697	2478	2473	2520	2434	2584
853	42454504	2698	2475	2468	2525	2432	2584
854	42454664	2694	2470	2465	2530	2429	2585
855	42454824	2697	2479	2463	2534	2426	2584
856	42454984	2693	2484	2470	2536	2423	2583
857	42455172	2708	2485	2467	2537	2418	2581
858	42455304	2700	2487	2469	2539	2414	2583
859	42455464	2706	2487	2472	2536	2410	2584
860	42455624	2708	2487	2474	2533	2406	2583
861	42455784	2697	2494	2468	2531	2401	2584
862	42455971	2697	2500	2467	2521	2394	2584
863	42456104	2698	2502	2470	2515	2391	2587
864	42456264	2699	2501	2462	2509	2386	2587
865	42456424	2703	2501	2460	2504	2382	2587
866	42456584	2697	2498	2463	2500	2379	2590
867	42456772	2701	2491	2463	2497	2374	2591
868	42456904	2701	2488	2462	2499	2372	2594
869	42457064	2702	2491	2450	2499	2372	2594
870	42457224	2700	2481	2459	2502	2368	2594
871	42457384	2705	2473	2464	2507	2365	2595
872	42457571	2698	2478	2458	2516	2362	2594
873	42457704	2699	2481	2463	2520	2361	2593
874	42457864	2705	2477	2465	2527	2356	2595
875	42458024	2698	2491	2466	2529	2353	2595
876	42458184	2699	2492	2460	2532	2349	2595
877	42458372	2703	2501	2452	2533	2345	2592
878	42458504	2696	2509	2457	2534	2344	2591
879	42458664	2694	2515	2448	2529	2340	2590
880	42458824	2696	2524	2443	2523	2337	2592
881	42458984	2699	2537	2443	2518	2334	2591
882	42459171	2698	2539	2444	2509	2330	2591
883	42459304	2696	2533	2442	2504	2328	2593
884	42459464	2700	2530	2453	2499	2326	2594
885	42459624	2701	2522	2452	2496	2323	2595
886	42459784	2702	2525	2446	2494	2320	2594
887	42459972	2702	2526	2448	2490	2315	2596
888	42460104	2699	2518	2446	2489	2314	2594
889	42460264	2702	2518	2448	2490	2311	2593
890	42460424	2696	2525	2431	2492	2309	2594
891	42460584	2697	2507	2437	2493	2306	2593
892	42460771	2698	2517	2429	2499	2303	2591
893	42460904	2704	2523	2424	2503	2302	2591
894	42461064	2697	2518	2426	2507	2302	2590
895	42461224	2704	2520	2427	2510	2300	2589
896	42461384	2697	2523	2423	2512	2298	2587
897	42461572	2694	2529	2410	2509	2296	2585
898	42461704	2694	2535	2411	2507	2296	2586
899	42461864	2694	2544	2402	2505	2296	2584
900	42462024	2696	2540	2401	2499	2296	2586
901	42462184	2688	2547	2407	2496	2295	2587
902	42462371	2697	2550	2400	2491	2294	2587
903	42462504	2690	2544	2394	2487	2296	2588
904	42462664	2691	2541	2401	2482	2295	2588
905	42462824	2691	2540	2392	2479	2294	2589
906	42462984	2691	2537	2401	2476	2295	2590
907	42463172	2691	2524	2407	2475	2294	2590
908	42463304	2690	2521	2411	2475	2296	2590
909	42463464	2686	2515	2414	2474	2295	2591
910	42463624	2695	2513	2406	2479	2295	2591
911	42463784	2690	2513	2404	2480	2296	2590
912	42463971	2696	2510	2398	2485	2297	2588
913	42464104	2705	2510	2393	2488	2297	2587
914	42464264	2698	2513	2392	2493	2297	2588
915	42464424	2687	2520	2394	2498	2298	2586
916	42464584	2691	2522	2392	2502	2301	2586
917	42464772	2692	2524	2392	2504	2301	2586
918	42464904	2701	2528	2390	2503	2301	2587
919	42465064	2700	2531	2403	2500	2302	2589
920	42465224	2692	2538	2387	2497	2301	2589
921	42465384	2692	2534	2386	2490	2301	2587
922	42465571	2693	2537	2386	2489	2299	2587
923	42465704	2688	2537	2383	2485	2301	2589
924	42465864	2687	2539	2387	2481	2302	2592
925	42466024	2687	2533	2382	2478	2304	2592
926	42466184	2684	2541	2384	2475	2303	2592
927	42466372	2682	2535	2396	2469	2301	2593
928	42466504	2688	2521	2400	2467	2303	2596
929	42466664	2687	2528	2393	2466	2303	2596
930	42466824	2684	2517	2393	2465	2303	2595
931	42466984	2683	2512	2402	2467	2304	2597
932	42467171	2695	2514	2397	2470	2304	2599
933	42467304	2687	2507	2408	2474	2305	2598
934	42467464	2693	2507	2406	2473	2306	2598
935	42467624	2691	2513	2416	2476	2303	2597
936	42467784	2692	2511	2409	2481	2303	2599
937	42467972	2691	2511	2407	2482	2302	2597
938	42468104	2696	2509	2409	2483	2303	2598
939	42468264	2688	2517	2412	2482	2303	2598
940	42468424	2691	2519	2412	2481	2303	2599
941	42468584	2691	2523	2410	2480	2302	2600
942	42468771	2696	2519	2414	2475	2301	2601
943	42468904	2691	2522	2406	2475	2300	2600
944	42469064	2690	2523	2404	2472	2300	2602
945	42469224	2703	2527	2395	2471	2302	2603
946	42469384	2698	2534	2392	2467	2301	2602
947	42469572	2695	2527	2390	2465	2300	2605
948	42469704	2699	2526	2407	2467	2303	2608
949	42469864	2703	2527	2408	2463	2301	2608
950	42470024	2703	2527	2408	2465	2299	2609
951	42470184	2694	2525	2414	2465	2300	2610
952	42470371	2693	2524	2405	2467	2300	2609
953	42470504	2694	2523	2412	2469	2298	2609
954	42470664	2700	2524	2408	2472	2299	2611
955	42470824	2697	2526	2415	2471	2298	2608
956	42470984	2694	2517	2417	2476	2297	2608
957	42471172	2693	2526	2414	2479	2296	2609
958	42471304	2696	2519	2411	2482	2296	2610
959	42471464	2697	2528	2409	2486	2295	2608
960	42471624	2698	2531	2404	2485	2297	2606
961	42471784	2693	2527	2413	2482	2294	2608
962	42471971	2683	2540	2401	2481	2294	2606
963	42472104	2686	2540	2395	2480	2295	2606
964	42472264	2694	2532	2395	2478	2295	2607
965	42472424	2700	2541	2396	2475	2294	2607
966	42472584	2687	2535	2391	2475	2296	2608
967	42472772	2691	2546	2392	2478	2295	2609
968	42472904	2688	2550	2389	2472	2298	2607
969	42473064	2689	2539	2392	2469	2296	2607
970	42473224	2682	2545	2393	2467	2297	2608
971	42473384	2697	2538	2395	2465	2297	2608
972	42473571	2696	2544	2394	2460	2296	2609
973	42473704	2701	2545	2402	2463	2297	2608
974	42473864	2690	2533	2404	2462	2296	2609
975	42474024	2683	2542	2407	2464	2295	2608
976	42474184	2698	2534	2407	2466	2297	2606
977	42474372	2697	2532	2412	2466	2295	2606
978	42474504	2699	2538	2412	2467	2295	2606
979	42474664	2701	2538	2414	2467	2295	2607
980	42474824	2691	2535	2407	2469	2295	2605
981	42474984	2691	2539	2407	2470	2296	2603
982	42475171	2691	2535	2410	2469	2295	2601
983	42475304	2697	2547	2406	2469	2292	2604
984	42475464	2691	2535	2411	2469	2295	2604
985	42475624	2695	2528	2402	2471	2294	2605
986	42475784	2692	2537	2408	2469	2294	2604
987	42475972	2696	2544	2406	2467	2292	2603
988	42476104	2691	2535	2410	2468	2293	2605
989	42476264	2686	2538	2401	2467	2294	2603
990	42476424	2697	2532	2398	2465	2293	2604
991	42476584	2699	2533	2404	2464	2291	2603
992	42476771	2696	2535	2395	2461	2290	2603
993	42476904	2699	2535	2393	2463	2292	2604
994	42477064	2700	2528	2400	2462	2291	2604
995	42477224	2694	2533	2405	2459	2290	2603
996	42477384	2692	2534	2407	2458	2291	2604
997	42477572	2686	2528	2398	2458	2289	2605
998	42477704	2685	2519	2405	2460	2291	2606
999	42477864	2693	2523	2406	2464	2292	2605
1000	42478024	2685	2515	2411	2464	2290	2605
1001	42478184	2691	2523	2411	2467	2291	2604
1002	42478371	2695	2527	2402	2470	2289	2604
1003	42478504	2691	2523	2414	2469	2288	2604
1004	42478664	2691	2524	2410	2470	2289	2603
1005	42478824	2696	2521	2399	2473	2289	2604
1006	42478984	2695	2523	2405	2472	2290	2604
1007	42479172	2691	2526	2393	2471	2290	2603
1008	42479304	2695	2527	2393	2472	2291	2604
1009	42479464	2698	2524	2397	2471	2289	2605
1010	42479624	2693	2530	2396	2469	2290	2605
1011	42479784	2696	2533	2399	2468	2291	2605
1012	42479971	2687	2527	2388	2467	2290	2604
1013	42480104	2691	2536	2392	2467	2290	2606
1014	42480264	2700	2531	2399	2467	2291	2605
1015	42480424	2690	2525	2393	2471	2292	2607
1016	42480584	2693	2533	2395	2473	2292	2606
1017	42480772	2698	2526	2395	2475	2292	2605
1018	42480904	2694	2522	2393	2474	2292	2607
1019	42481064	2693	2534	2388	2475	2294	2605
1020	42481224	2692	2528	2401	2473	2293	2604
1021	42481384	2690	2534	2404	2471	2293	2604
1022	42481570	2694	2529	2410	2468	2291	2604
1023	42481704	2689	2525	2407	2466	2290	2606
1024	42481864	2685	2524	2398	2466	2291	2605
1025	42482024	2691	2539	2395	2465	2290	2606
1026	42482184	2687	2533	2401	2464	2291	2607
1027	42482372	2695	2537	2396	2461	2290	2604
1028	42482504	2687	2529	2393	2461	2291	2605
1029	42482664	2694	2533	2405	2462	2293	2606
1030	42482824	2697	2528	2396	2463	2292	2605
1031	42482984	2691	2528	2393	2466	2295	2606
1032	42483171	2691	2525	2393	2467	2293	2606
1033	42483304	2698	2523	2393	2467	2295	2605
1034	42483464	2700	2527	2397	2468	2294	2605
1035	42483624	2705	2528	2395	2469	2294	2605
1036	42483784	2700	2529	2397	2470	2295	2605
1037	42483972	2693	2528	2393	2469	2294	2605
1038	42484104	2690	2531	2399	2469	2295	2603
1039	42484264	2693	2525	2395	2470	2296	2605
1040	42484424	2697	2531	2397	2470	2296	2605
1041	42484584	2696	2527	2404	2472	2297	2604
1042	42484771	2691	2527	2394	2471	2295	2604
1043	42484904	2699	2531	2396	2470	2295	2605
1044	42485064	2695	2535	2398	2468	2295	2606
1045	42485224	2701	2534	2402	2468	2296	2605
1046	42485384	2700	2528	2405	2467	2296	2605
1047	42485572	2694	2531	2410	2463	2296	2603
1048	42485704	2697	2531	2405	2468	2296	2606
1049	42485864	2698	2533	2404	2467	2296	2605
1050	42486024	2703	2528	2401	2465	2297	2603
1051	42486184	2699	2528	2401	2463	2295	2603
1052	42486371	2692	2531	2401	2462	2295	2605
1053	42486504	2693	2533	2401	2464	2295	2604
1054	42486664	2693	2534	2406	2465	2296	2604
1055	42486824	2694	2527	2395	2468	2294	2604
1056	42486984	2698	2521	2397	2467	2294	2605
1057	42487172	2696	2519	2406	2469	2293	2603
1058	42487304	2686	2522	2397	2471	2294	2603
1059	42487464	2697	2517	2397	2475	2295	2603
1060	42487624	2694	2529	2406	2476	2293	2604
1061	42487784	2690	2531	2397	2475	2293	2603
1062	42487971	2696	2526	2404	2474	2292	2603
1063	42488104	2693	2529	2401	2477	2293	2602
1064	42488264	2694	2526	2401	2476	2292	2603
1065	42488424	2693	2525	2408	2473	2291	2603
1066	42488584	2695	2521	2404	2473	2292	2604
1067	42488772	2693	2522	2401	2473	2291	2605
1068	42488904	2691	2523	2405	2473	2292	2603
1069	42489064	2702	2528	2402	2473	2291	2603
1070	42489224	2695	2523	2406	2474	2293	2604
1071	42489384	2697	2526	2397	2474	2292	2603
1072	42489571	2697	2531	2403	2473	2292	2602
1073	42489704	2692	2532	2399	2472	2293	2602
1074	42489864	2694	2537	2396	2468	2292	2604
1075	42490024	2699	2538	2396	2468	2294	2602
1076	42490184	2693	2528	2401	2471	2294	2604
1077	42490372	2694	2530	2397	2470	2294	2603
1078	42490504	2704	2535	2396	2470	2294	2604
1079	42490664	2697	2541	2387	2471	2294	2603
1080	42490824	2695	2535	2393	2470	2295	2602
1081	42490984	2703	2524	2396	2472	2293	2603
1082	42491171	2696	2531	2396	2473	2294	2603
1083	42491304	2689	2532	2396	2472	2296	2603
1084	42491464	2697	2538	2391	2475	2295	2602
1085	42491624	2692	2541	2402	2472	2295	2601
1086	42491784	2696	2536	2391	2473	2295	2602
1087	42491972	2689	2537	2400	2473	2293	2601
1088	42492104	2685	2532	2400	2473	2296	2601
1089	42492264	2690	2519	2403	2473	2296	2601
1090	42492424	2697	2536	2414	2473	2295	2601
1091	42492584	2697	2527	2406	2474	2294	2601
1092	42492771	2697	2531	2402	2473	2294	2602
1093	42492904	2702	2529	2408	2471	2295	2600
1094	42493064	2699	2530	2399	2471	2295	2601
1095	42493224	2692	2529	2400	2471	2295	2602
1096	42493384	2699	2527	2401	2472	2296	2603
1097	42493572	2694	2521	2406	2473	2294	2601
1098	42493704	2698	2530	2407	2473	2295	2601
1099	42493864	2694	2523	2398	2474	2294	2600
1100	42494024	2684	2527	2397	2473	2296	2601
1101	42494184	2685	2530	2400	2474	2295	2601
1102	42494371	2701	2525	2399	2473	2295	2601
1103	42494504	2698	2529	2394	2473	2293	2601
1104	42494664	2691	2525	2397	2473	2293	2601
1105	42494824	2695	2521	2396	2471	2294	2602
1106	42494984	2698	2529	2399	2471	2294	2601
1107	42495172	2701	2536	2403	2468	2293	2602
1108	42495304	2692	2529	2399	2468	2293	2603
1109	42495464	2696	2531	2407	2468	2294	2603
1110	42495624	2694	2522	2407	2469	2295	2604
1111	42495784	2698	2526	2408	2469	2294	2603
1112	42495971	2691	2523	2406	2468	2293	2603
1113	42496104	2699	2522	2404	2468	2293	2605
1114	42496264	2703	2529	2394	2467	2293	2605
1115	42496424	2696	2530	2393	2468	2294	2603
1116	42496584	2697	2524	2393	2469	2293	2606
1117	42496772	2693	2525	2400	2468	2293	2605
1118	42496904	2693	2528	2399	2470	2295	2606
1119	42497064	2691	2531	2395	2472	2295	2605
1120	42497224	2695	2527	2391	2472	2297	2604
1121	42497384	2696	2530	2400	2474	2295	2605
1122	42497571	2696	2530	2390	2475	2295	2604
1123	42497704	2698	2528	2395	2475	2297	2603
1124	42497864	2699	2524	2396	2476	2295	2603
1125	42498024	2696	2537	2393	2477	2296	2603
1126	42498184	2687	2534	2395	2476	2294	2604
1127	42498372	2690	2537	2397	2475	2295	2604
1128	42498504	2697	2532	2403	2476	2295	2603
1129	42498664	2699	2533	2397	2475	2295	2604
1130	42498824	2699	2534	2403	2474	2295	2604
1131	42498984	2695	2527	2400	2472	2295	2603
1132	42499171	2691	2534	2400	2473	2295	2604
1133	42499304	2696	2537	2400	2470	2294	2603
1134	42499464	2692	2533	2405	2470	2294	2602
1135	42499624	2692	2531	2404	2469	2295	2603
1136	42499784	2693	2533	2398	2466	2295	2603
1137	42499972	2693	2537	2396	2465	2294	2602
1138	42500104	2699	2525	2402	2465	2294	2604
1139	42500264	2695	2527	2402	2465	2295	2603
1140	42500424	2692	2530	2400	2464	2294	2602
1141	42500584	2689	2532	2403	2464	2295	2603
1142	42500772	2691	2534	2405	2464	2291	2603
1143	42500904	2693	2533	2399	2464	2291	2604
1144	42501064	2700	2533	2403	2464	2291	2602
1145	42501224	2699	2529	2404	2462	2290	2603
1146	42501384	2696	2528	2408	2461	2288	2603
1147	42501572	2694	2533	2400	2459	2286	2602
1148	42501704	2694	2524	2402	2459	2288	2603
1149	42501864	2695	2524	2405	2457	2287	2603
1150	42502024	2693	2529	2403	2456	2287	2605
1151	42502184	2696	2523	2400	2455	2286	2606
1152	42502371	2697	2527	2406	2456	2284	2606
1153	42502504	2695	2521	2403	2455	2285	2606
1154	42502664	2695	2521	2405	2453	2285	2605
1155	42502824	2700	2523	2406	2452	2285	2606
;

param N := 1155;
